TITLE	PE8_GEF_Assay
DATA TYPE	
ORIGIN	JASCO
OWNER	
DATE	18/08/27
TIME	15:38:34
SPECTROMETER/DATA SYSTEM	JASCO Corp., J-715, Rev. 1.00
RESOLUTION	
DELTAX	-0.2
XUNITS	NANOMETERS
YUNITS	CD[mdeg]
Y2UNITS	HT[V]
FIRSTX	280.0000
LASTX	195.0000
NPOINTS	426
FIRSTY	0.14841
MAXY	7.68969
MINY	-7.92757
XYDATA
280.0000	0.148407	236.042
279.8000	0.155366	236.056
279.6000	0.159282	236.076
279.4000	0.155752	236.1
279.2000	0.153364	236.134
279.0000	0.150545	236.177
278.8000	0.148848	236.225
278.6000	0.158383	236.28
278.4000	0.160558	236.342
278.2000	0.161128	236.411
278.0000	0.161732	236.488
277.8000	0.167389	236.574
277.6000	0.164123	236.667
277.4000	0.16106	236.769
277.2000	0.160322	236.873
277.0000	0.153766	236.975
276.8000	0.161704	237.077
276.6000	0.162673	237.18
276.4000	0.158471	237.284
276.2000	0.163398	237.387
276.0000	0.156866	237.492
275.8000	0.150928	237.596
275.6000	0.149451	237.701
275.4000	0.149692	237.807
275.2000	0.142974	237.913
275.0000	0.142132	238.018
274.8000	0.129594	238.125
274.6000	0.134943	238.228
274.4000	0.140277	238.332
274.2000	0.143207	238.436
274.0000	0.139901	238.543
273.8000	0.14228	238.646
273.6000	0.135487	238.753
273.4000	0.130427	238.86
273.2000	0.125167	238.969
273.0000	0.121248	239.08
272.8000	0.113466	239.19
272.6000	0.120097	239.302
272.4000	0.131578	239.417
272.2000	0.134116	239.533
272.0000	0.137713	239.65
271.8000	0.126616	239.766
271.6000	0.116395	239.885
271.4000	0.10847	240.006
271.2000	0.100045	240.13
271.0000	0.0951236	240.253
270.8000	0.0977807	240.374
270.6000	0.101917	240.495
270.4000	0.101989	240.615
270.2000	0.0981213	240.733
270.0000	0.089897	240.849
269.8000	0.0904081	240.963
269.6000	0.0826046	241.075
269.4000	0.0741847	241.186
269.2000	0.0666673	241.297
269.0000	0.071397	241.405
268.8000	0.0640377	241.51
268.6000	0.0688356	241.612
268.4000	0.0686267	241.714
268.2000	0.0752474	241.816
268.0000	0.0685093	241.919
267.8000	0.0760395	242.02
267.6000	0.078555	242.122
267.4000	0.0859497	242.224
267.2000	0.074392	242.326
267.0000	0.0653694	242.431
266.8000	0.0743212	242.531
266.6000	0.0712898	242.632
266.4000	0.0658522	242.733
266.2000	0.0574264	242.834
266.0000	0.0617366	242.934
265.8000	0.06045	243.033
265.6000	0.0518495	243.129
265.4000	0.0535532	243.228
265.2000	0.053137	243.324
265.0000	0.0495791	243.419
264.8000	0.0608707	243.513
264.6000	0.0657837	243.605
264.4000	0.0714938	243.694
264.2000	0.0684289	243.784
264.0000	0.054433	243.874
263.8000	0.0630761	243.963
263.6000	0.0577461	244.047
263.4000	0.058626	244.134
263.2000	0.0651468	244.221
263.0000	0.0611874	244.309
262.8000	0.0556333	244.396
262.6000	0.0571076	244.481
262.4000	0.0539622	244.568
262.2000	0.0452891	244.657
262.0000	0.0270233	244.748
261.8000	0.0265946	244.841
261.6000	0.0241204	244.934
261.4000	0.0311595	245.029
261.2000	0.0385801	245.125
261.0000	0.04419	245.224
260.8000	0.0411448	245.328
260.6000	0.0372562	245.433
260.4000	0.051678	245.54
260.2000	0.0451386	245.648
260.0000	0.0409822	245.757
259.8000	0.0333776	245.864
259.6000	0.0285318	245.974
259.4000	0.0376171	246.082
259.2000	0.0445075	246.192
259.0000	0.0452977	246.303
258.8000	0.0509967	246.41
258.6000	0.0460984	246.518
258.4000	0.0402969	246.628
258.2000	0.0313848	246.735
258.0000	0.0386819	246.844
257.8000	0.038671	246.95
257.6000	0.0323254	247.055
257.4000	0.0346422	247.159
257.2000	0.0398043	247.266
257.0000	0.0374038	247.373
256.8000	0.0423956	247.48
256.6000	0.0426893	247.588
256.4000	0.0448915	247.695
256.2000	0.0415379	247.806
256.0000	0.0364536	247.921
255.8000	0.0261234	248.035
255.6000	0.0352977	248.148
255.4000	0.0302586	248.261
255.2000	0.0247817	248.376
255.0000	0.0202868	248.493
254.8000	0.0336748	248.609
254.6000	0.0347228	248.727
254.4000	0.0327772	248.846
254.2000	0.035684	248.963
254.0000	0.0272721	249.08
253.8000	0.0274673	249.195
253.6000	0.0162116	249.311
253.4000	0.013117	249.428
253.2000	0.00937456	249.545
253.0000	0.0101525	249.661
252.8000	0.00260299	249.777
252.6000	0.00148278	249.891
252.4000	0.000918448	250.003
252.2000	-0.00271454	250.117
252.0000	-0.021915	250.233
251.8000	-0.0255435	250.349
251.6000	-0.0181146	250.462
251.4000	-0.0181244	250.575
251.2000	-0.0218421	250.692
251.0000	-0.0269762	250.808
250.8000	-0.0282116	250.92
250.6000	-0.0334936	251.029
250.4000	-0.0452355	251.138
250.2000	-0.040561	251.247
250.0000	-0.0457605	251.36
249.8000	-0.0666996	251.472
249.6000	-0.0689493	251.583
249.4000	-0.0785278	251.693
249.2000	-0.0835615	251.803
249.0000	-0.0946249	251.913
248.8000	-0.118974	252.027
248.6000	-0.133102	252.144
248.4000	-0.133904	252.262
248.2000	-0.137931	252.387
248.0000	-0.138312	252.514
247.8000	-0.158457	252.642
247.6000	-0.154149	252.773
247.4000	-0.176644	252.904
247.2000	-0.178743	253.034
247.0000	-0.184532	253.17
246.8000	-0.20288	253.309
246.6000	-0.199923	253.449
246.4000	-0.219742	253.593
246.2000	-0.218853	253.736
246.0000	-0.217323	253.881
245.8000	-0.234838	254.028
245.6000	-0.248882	254.174
245.4000	-0.265315	254.319
245.2000	-0.277375	254.467
245.0000	-0.290707	254.617
244.8000	-0.2995	254.769
244.6000	-0.315398	254.923
244.4000	-0.341934	255.08
244.2000	-0.360108	255.236
244.0000	-0.375189	255.397
243.8000	-0.402089	255.563
243.6000	-0.412868	255.732
243.4000	-0.446431	255.906
243.2000	-0.469427	256.081
243.0000	-0.500172	256.261
242.8000	-0.524982	256.444
242.6000	-0.54795	256.631
242.4000	-0.581932	256.823
242.2000	-0.604535	257.02
242.0000	-0.640123	257.221
241.8000	-0.672397	257.426
241.6000	-0.685759	257.637
241.4000	-0.704415	257.851
241.2000	-0.735796	258.065
241.0000	-0.767681	258.285
240.8000	-0.806467	258.507
240.6000	-0.838626	258.733
240.4000	-0.86928	258.965
240.2000	-0.897109	259.199
240.0000	-0.952074	259.437
239.8000	-0.979769	259.678
239.6000	-1.02187	259.923
239.4000	-1.08491	260.171
239.2000	-1.13355	260.426
239.0000	-1.1818	260.685
238.8000	-1.24803	260.947
238.6000	-1.30624	261.212
238.4000	-1.36112	261.482
238.2000	-1.42376	261.754
238.0000	-1.47841	262.031
237.8000	-1.53786	262.311
237.6000	-1.59877	262.597
237.4000	-1.65228	262.886
237.2000	-1.72701	263.179
237.0000	-1.78555	263.477
236.8000	-1.85113	263.781
236.6000	-1.90544	264.087
236.4000	-1.97609	264.395
236.2000	-2.05125	264.708
236.0000	-2.12827	265.027
235.8000	-2.21008	265.352
235.6000	-2.28392	265.681
235.4000	-2.35728	266.012
235.2000	-2.42752	266.346
235.0000	-2.50999	266.683
234.8000	-2.58638	267.024
234.6000	-2.64394	267.371
234.4000	-2.73577	267.72
234.2000	-2.8213	268.074
234.0000	-2.90357	268.43
233.8000	-2.98026	268.793
233.6000	-3.04263	269.161
233.4000	-3.1071	269.531
233.2000	-3.16112	269.901
233.0000	-3.22708	270.273
232.8000	-3.30078	270.648
232.6000	-3.36921	271.025
232.4000	-3.45572	271.401
232.2000	-3.54304	271.776
232.0000	-3.65445	272.153
231.8000	-3.74337	272.529
231.6000	-3.79361	272.905
231.4000	-3.84721	273.28
231.2000	-3.9245	273.657
231.0000	-4.00826	274.031
230.8000	-4.09876	274.406
230.6000	-4.16992	274.783
230.4000	-4.25311	275.16
230.2000	-4.3093	275.54
230.0000	-4.40165	275.918
229.8000	-4.46677	276.301
229.6000	-4.53781	276.686
229.4000	-4.59449	277.069
229.2000	-4.66632	277.453
229.0000	-4.75168	277.838
228.8000	-4.83112	278.225
228.6000	-4.90846	278.61
228.4000	-4.97367	278.997
228.2000	-5.03974	279.382
228.0000	-5.10523	279.764
227.8000	-5.18126	280.146
227.6000	-5.26139	280.526
227.4000	-5.32086	280.905
227.2000	-5.3838	281.284
227.0000	-5.45177	281.663
226.8000	-5.53398	282.042
226.6000	-5.58794	282.422
226.4000	-5.63571	282.802
226.2000	-5.68195	283.184
226.0000	-5.75351	283.568
225.8000	-5.80922	283.952
225.6000	-5.85941	284.334
225.4000	-5.9155	284.721
225.2000	-5.95183	285.11
225.0000	-5.99278	285.5
224.8000	-6.0257	285.892
224.6000	-6.08387	286.285
224.4000	-6.12574	286.681
224.2000	-6.13695	287.079
224.0000	-6.15097	287.481
223.8000	-6.19337	287.885
223.6000	-6.2497	288.29
223.4000	-6.27458	288.697
223.2000	-6.28778	289.105
223.0000	-6.3118	289.517
222.8000	-6.33395	289.93
222.6000	-6.35215	290.347
222.4000	-6.36563	290.766
222.2000	-6.39064	291.189
222.0000	-6.40596	291.617
221.8000	-6.433	292.048
221.6000	-6.46785	292.483
221.4000	-6.49214	292.92
221.2000	-6.51954	293.36
221.0000	-6.53829	293.802
220.8000	-6.52892	294.251
220.6000	-6.52917	294.703
220.4000	-6.54282	295.16
220.2000	-6.54987	295.62
220.0000	-6.53357	296.088
219.8000	-6.52842	296.561
219.6000	-6.53228	297.039
219.4000	-6.54117	297.523
219.2000	-6.55592	298.016
219.0000	-6.54979	298.515
218.8000	-6.54235	299.022
218.6000	-6.53867	299.538
218.4000	-6.52795	300.063
218.2000	-6.52839	300.597
218.0000	-6.54758	301.141
217.8000	-6.55631	301.693
217.6000	-6.55975	302.257
217.4000	-6.59645	302.83
217.2000	-6.6219	303.413
217.0000	-6.62027	304.007
216.8000	-6.63919	304.612
216.6000	-6.65188	305.226
216.4000	-6.64845	305.85
216.2000	-6.66336	306.486
216.0000	-6.67778	307.133
215.8000	-6.68327	307.792
215.6000	-6.67784	308.466
215.4000	-6.68144	309.154
215.2000	-6.68638	309.858
215.0000	-6.70984	310.579
214.8000	-6.72411	311.319
214.6000	-6.73945	312.079
214.4000	-6.7384	312.858
214.2000	-6.78504	313.66
214.0000	-6.79707	314.481
213.8000	-6.82431	315.324
213.6000	-6.85484	316.191
213.4000	-6.89937	317.082
213.2000	-6.92452	318.001
213.0000	-6.96746	318.941
212.8000	-7.01054	319.898
212.6000	-7.06137	320.889
212.4000	-7.11026	321.906
212.2000	-7.17761	322.948
212.0000	-7.21324	324.016
211.8000	-7.27764	325.109
211.6000	-7.35809	326.228
211.4000	-7.42579	327.376
211.2000	-7.48619	328.555
211.0000	-7.53858	329.765
210.8000	-7.59047	331.005
210.6000	-7.64617	332.281
210.4000	-7.72872	333.589
210.2000	-7.75487	334.942
210.0000	-7.80657	336.333
209.8000	-7.8681	337.758
209.6000	-7.87699	339.221
209.4000	-7.86837	340.725
209.2000	-7.88701	342.27
209.0000	-7.9198	343.855
208.8000	-7.92757	345.484
208.6000	-7.91621	347.154
208.4000	-7.89961	348.866
208.2000	-7.92494	350.62
208.0000	-7.88183	352.42
207.8000	-7.81129	354.266
207.6000	-7.77436	356.161
207.4000	-7.73777	358.1
207.2000	-7.75317	360.086
207.0000	-7.6754	362.127
206.8000	-7.60234	364.219
206.6000	-7.51834	366.364
206.4000	-7.45751	368.564
206.2000	-7.29245	370.82
206.0000	-7.11406	373.13
205.8000	-6.93968	375.498
205.6000	-6.79328	377.925
205.4000	-6.63516	380.409
205.2000	-6.54082	382.945
205.0000	-6.38624	385.537
204.8000	-6.25408	388.192
204.6000	-6.10002	390.911
204.4000	-5.84445	393.692
204.2000	-5.68173	396.53
204.0000	-5.49526	399.437
203.8000	-5.35777	402.411
203.6000	-5.19412	405.454
203.4000	-5.05398	408.568
203.2000	-4.91041	411.757
203.0000	-4.73362	415.024
202.8000	-4.6009	418.37
202.6000	-4.44656	421.801
202.4000	-4.17287	425.31
202.2000	-3.93331	428.893
202.0000	-3.65105	432.551
201.8000	-3.33818	436.284
201.6000	-3.01562	440.098
201.4000	-2.71339	444.003
201.2000	-2.32677	447.992
201.0000	-1.94171	452.061
200.8000	-1.62013	456.219
200.6000	-1.21807	460.469
200.4000	-0.785944	464.804
200.2000	-0.398192	469.226
200.0000	0.186429	473.742
199.8000	0.590477	478.361
199.6000	0.970389	483.091
199.4000	1.47943	487.934
199.2000	1.90549	492.884
199.0000	2.17201	497.947
198.8000	2.57252	503.119
198.6000	3.0546	508.396
198.4000	3.32032	513.795
198.2000	3.70354	519.323
198.0000	4.08578	524.978
197.8000	4.29154	530.77
197.6000	4.59748	536.696
197.4000	4.98542	542.747
197.2000	5.20442	548.925
197.0000	5.45	555.254
196.8000	5.78618	561.741
196.6000	6.05934	568.396
196.4000	6.33192	575.225
196.2000	6.73878	582.255
196.0000	6.92388	589.499
195.8000	6.87452	596.963
195.6000	6.97869	604.651
195.4000	7.24479	612.573
195.2000	7.5622	620.735
195.0000	7.68969	629.151
