TITLE	PE18_GEF_Assay_Scan
DATA TYPE	
ORIGIN	JASCO
OWNER	
DATE	18/09/11
TIME	12:52:41
SPECTROMETER/DATA SYSTEM	JASCO Corp., J-715, Rev. 1.00
RESOLUTION	
DELTAX	-0.2
XUNITS	NANOMETERS
YUNITS	CD[mdeg]
Y2UNITS	HT[V]
FIRSTX	280.0000
LASTX	195.0000
NPOINTS	426
FIRSTY	-0.20141
MAXY	8.57893
MINY	-7.89602
XYDATA
280.0000	-0.201414	237.165
279.8000	-0.206961	237.174
279.6000	-0.216832	237.189
279.4000	-0.216429	237.213
279.2000	-0.208487	237.244
279.0000	-0.210701	237.286
278.8000	-0.215166	237.333
278.6000	-0.222018	237.39
278.4000	-0.225006	237.451
278.2000	-0.227313	237.521
278.0000	-0.22286	237.599
277.8000	-0.236866	237.684
277.6000	-0.242274	237.778
277.4000	-0.241171	237.88
277.2000	-0.236107	237.987
277.0000	-0.231768	238.095
276.8000	-0.223751	238.204
276.6000	-0.232384	238.312
276.4000	-0.227468	238.42
276.2000	-0.22463	238.528
276.0000	-0.229757	238.636
275.8000	-0.223325	238.743
275.6000	-0.213229	238.853
275.4000	-0.201533	238.962
275.2000	-0.192368	239.07
275.0000	-0.193201	239.179
274.8000	-0.203783	239.287
274.6000	-0.203227	239.393
274.4000	-0.194795	239.498
274.2000	-0.184588	239.603
274.0000	-0.188431	239.709
273.8000	-0.194225	239.815
273.6000	-0.188361	239.923
273.4000	-0.177655	240.03
273.2000	-0.181403	240.138
273.0000	-0.175097	240.245
272.8000	-0.179217	240.353
272.6000	-0.193969	240.466
272.4000	-0.184792	240.579
272.2000	-0.175149	240.697
272.0000	-0.16749	240.816
271.8000	-0.176525	240.938
271.6000	-0.175717	241.061
271.4000	-0.188144	241.186
271.2000	-0.187744	241.312
271.0000	-0.190177	241.436
270.8000	-0.196832	241.56
270.6000	-0.208715	241.685
270.4000	-0.213866	241.809
270.2000	-0.215247	241.934
270.0000	-0.214567	242.055
269.8000	-0.214456	242.174
269.6000	-0.223409	242.289
269.4000	-0.219423	242.402
269.2000	-0.200167	242.513
269.0000	-0.206944	242.621
268.8000	-0.207624	242.726
268.6000	-0.202401	242.829
268.4000	-0.194869	242.93
268.2000	-0.199543	243.032
268.0000	-0.19362	243.133
267.8000	-0.189104	243.236
267.6000	-0.188232	243.338
267.4000	-0.193222	243.439
267.2000	-0.200213	243.542
267.0000	-0.19032	243.646
266.8000	-0.192433	243.748
266.6000	-0.19602	243.85
266.4000	-0.207619	243.951
266.2000	-0.209917	244.049
266.0000	-0.215686	244.147
265.8000	-0.225969	244.246
265.6000	-0.226669	244.345
265.4000	-0.225361	244.442
265.2000	-0.225721	244.537
265.0000	-0.226769	244.63
264.8000	-0.238277	244.724
264.6000	-0.230839	244.814
264.4000	-0.218814	244.904
264.2000	-0.219941	244.997
264.0000	-0.231068	245.088
263.8000	-0.236471	245.178
263.6000	-0.234796	245.265
263.4000	-0.228854	245.358
263.2000	-0.222964	245.45
263.0000	-0.216798	245.54
262.8000	-0.20999	245.631
262.6000	-0.206624	245.722
262.4000	-0.199116	245.817
262.2000	-0.201824	245.912
262.0000	-0.191947	246.01
261.8000	-0.200033	246.109
261.6000	-0.201366	246.205
261.4000	-0.195041	246.305
261.2000	-0.192745	246.406
261.0000	-0.195842	246.508
260.8000	-0.194029	246.612
260.6000	-0.186103	246.714
260.4000	-0.189809	246.82
260.2000	-0.193277	246.928
260.0000	-0.194901	247.037
259.8000	-0.196429	247.144
259.6000	-0.189314	247.253
259.4000	-0.180546	247.358
259.2000	-0.179754	247.463
259.0000	-0.179663	247.569
258.8000	-0.184988	247.673
258.6000	-0.186541	247.777
258.4000	-0.177755	247.882
258.2000	-0.173988	247.986
258.0000	-0.165776	248.094
257.8000	-0.170028	248.2
257.6000	-0.168766	248.308
257.4000	-0.171033	248.414
257.2000	-0.177239	248.522
257.0000	-0.190289	248.63
256.8000	-0.207931	248.736
256.6000	-0.222108	248.846
256.4000	-0.235981	248.958
256.2000	-0.244115	249.07
256.0000	-0.23763	249.185
255.8000	-0.240606	249.301
255.6000	-0.251311	249.415
255.4000	-0.242002	249.533
255.2000	-0.250492	249.651
255.0000	-0.239817	249.767
254.8000	-0.249364	249.883
254.6000	-0.262704	249.998
254.4000	-0.25557	250.115
254.2000	-0.253632	250.234
254.0000	-0.240334	250.353
253.8000	-0.232375	250.47
253.6000	-0.231816	250.587
253.4000	-0.229134	250.704
253.2000	-0.234642	250.821
253.0000	-0.230038	250.936
252.8000	-0.231433	251.052
252.6000	-0.242481	251.163
252.4000	-0.264767	251.273
252.2000	-0.263187	251.385
252.0000	-0.254667	251.499
251.8000	-0.25043	251.616
251.6000	-0.25921	251.73
251.4000	-0.263757	251.843
251.2000	-0.266315	251.955
251.0000	-0.260684	252.066
250.8000	-0.253416	252.176
250.6000	-0.251832	252.285
250.4000	-0.269091	252.396
250.2000	-0.273756	252.507
250.0000	-0.277964	252.621
249.8000	-0.281945	252.733
249.6000	-0.277949	252.846
249.4000	-0.303703	252.959
249.2000	-0.320849	253.072
249.0000	-0.322417	253.184
248.8000	-0.316684	253.298
248.6000	-0.323376	253.415
248.4000	-0.335966	253.535
248.2000	-0.353294	253.658
248.0000	-0.367194	253.785
247.8000	-0.373118	253.914
247.6000	-0.379605	254.041
247.4000	-0.394225	254.171
247.2000	-0.392566	254.301
247.0000	-0.393862	254.437
246.8000	-0.380117	254.573
246.6000	-0.386363	254.709
246.4000	-0.385059	254.848
246.2000	-0.397041	254.988
246.0000	-0.42309	255.129
245.8000	-0.450467	255.272
245.6000	-0.460065	255.416
245.4000	-0.482709	255.561
245.2000	-0.48981	255.707
245.0000	-0.497533	255.856
244.8000	-0.518828	256.008
244.6000	-0.523539	256.162
244.4000	-0.548807	256.319
244.2000	-0.56753	256.477
244.0000	-0.597825	256.637
243.8000	-0.622872	256.801
243.6000	-0.635928	256.967
243.4000	-0.643669	257.139
243.2000	-0.667412	257.315
243.0000	-0.68166	257.495
242.8000	-0.68694	257.677
242.6000	-0.706497	257.864
242.4000	-0.747555	258.054
242.2000	-0.790561	258.25
242.0000	-0.8295	258.447
241.8000	-0.847639	258.65
241.6000	-0.876345	258.856
241.4000	-0.924141	259.067
241.2000	-0.953523	259.279
241.0000	-0.981703	259.496
240.8000	-1.02634	259.717
240.6000	-1.06759	259.94
240.4000	-1.09104	260.168
240.2000	-1.14801	260.399
240.0000	-1.19957	260.633
239.8000	-1.24284	260.872
239.6000	-1.27669	261.116
239.4000	-1.30856	261.362
239.2000	-1.35379	261.613
239.0000	-1.4163	261.868
238.8000	-1.46128	262.129
238.6000	-1.49937	262.39
238.4000	-1.56335	262.657
238.2000	-1.63657	262.93
238.0000	-1.70564	263.206
237.8000	-1.76875	263.483
237.6000	-1.82983	263.764
237.4000	-1.88564	264.05
237.2000	-1.93294	264.34
237.0000	-1.99453	264.636
236.8000	-2.06514	264.936
236.6000	-2.12905	265.241
236.4000	-2.21504	265.549
236.2000	-2.3006	265.86
236.0000	-2.39	266.174
235.8000	-2.47122	266.495
235.6000	-2.5447	266.817
235.4000	-2.60903	267.143
235.2000	-2.68787	267.475
235.0000	-2.76746	267.813
234.8000	-2.87156	268.151
234.6000	-2.96047	268.495
234.4000	-3.04876	268.839
234.2000	-3.12945	269.187
234.0000	-3.21743	269.536
233.8000	-3.3044	269.889
233.6000	-3.37439	270.246
233.4000	-3.43856	270.609
233.2000	-3.52032	270.973
233.0000	-3.59947	271.336
232.8000	-3.67763	271.702
232.6000	-3.76006	272.067
232.4000	-3.85172	272.431
232.2000	-3.92319	272.795
232.0000	-4.00196	273.161
231.8000	-4.08817	273.528
231.6000	-4.17455	273.894
231.4000	-4.24584	274.261
231.2000	-4.31914	274.63
231.0000	-4.37828	274.999
230.8000	-4.47234	275.367
230.6000	-4.53898	275.735
230.4000	-4.61123	276.105
230.2000	-4.68132	276.479
230.0000	-4.76803	276.854
229.8000	-4.82779	277.23
229.6000	-4.89865	277.607
229.4000	-4.97037	277.985
229.2000	-5.03931	278.363
229.0000	-5.11365	278.742
228.8000	-5.18745	279.125
228.6000	-5.27798	279.505
228.4000	-5.35107	279.883
228.2000	-5.42682	280.258
228.0000	-5.4851	280.633
227.8000	-5.56694	281.008
227.6000	-5.61823	281.384
227.4000	-5.6792	281.757
227.2000	-5.74818	282.128
227.0000	-5.81116	282.502
226.8000	-5.85674	282.876
226.6000	-5.91216	283.25
226.4000	-5.96442	283.62
226.2000	-6.00121	283.992
226.0000	-6.02974	284.364
225.8000	-6.0466	284.738
225.6000	-6.09153	285.115
225.4000	-6.1267	285.494
225.2000	-6.15441	285.873
225.0000	-6.18909	286.251
224.8000	-6.23187	286.631
224.6000	-6.25469	287.013
224.4000	-6.29889	287.398
224.2000	-6.31821	287.783
224.0000	-6.33611	288.171
223.8000	-6.37024	288.562
223.6000	-6.385	288.957
223.4000	-6.41918	289.353
223.2000	-6.46629	289.751
223.0000	-6.4952	290.152
222.8000	-6.52656	290.556
222.6000	-6.55532	290.964
222.4000	-6.61663	291.374
222.2000	-6.64065	291.789
222.0000	-6.66101	292.206
221.8000	-6.67797	292.625
221.6000	-6.66226	293.048
221.4000	-6.68157	293.473
221.2000	-6.6908	293.9
221.0000	-6.71841	294.329
220.8000	-6.7447	294.764
220.6000	-6.76303	295.203
220.4000	-6.76837	295.646
220.2000	-6.7893	296.093
220.0000	-6.7797	296.545
219.8000	-6.76141	296.999
219.6000	-6.75224	297.461
219.4000	-6.75981	297.93
219.2000	-6.76443	298.407
219.0000	-6.77306	298.891
218.8000	-6.80098	299.379
218.6000	-6.82727	299.876
218.4000	-6.83442	300.383
218.2000	-6.81996	300.897
218.0000	-6.81616	301.416
217.8000	-6.8462	301.945
217.6000	-6.86201	302.484
217.4000	-6.88146	303.033
217.2000	-6.88136	303.59
217.0000	-6.90465	304.158
216.8000	-6.92799	304.734
216.6000	-6.96837	305.32
216.4000	-6.99326	305.914
216.2000	-6.99446	306.519
216.0000	-7.01599	307.135
215.8000	-7.01568	307.763
215.6000	-7.03815	308.404
215.4000	-7.0731	309.062
215.2000	-7.07912	309.733
215.0000	-7.08053	310.418
214.8000	-7.06998	311.117
214.6000	-7.06472	311.834
214.4000	-7.06378	312.569
214.2000	-7.08392	313.327
214.0000	-7.11726	314.105
213.8000	-7.15233	314.906
213.6000	-7.20957	315.728
213.4000	-7.21797	316.574
213.2000	-7.25244	317.444
213.0000	-7.2574	318.334
212.8000	-7.29512	319.246
212.6000	-7.35677	320.183
212.4000	-7.38385	321.141
212.2000	-7.4343	322.125
212.0000	-7.48996	323.133
211.8000	-7.56542	324.165
211.6000	-7.60837	325.223
211.4000	-7.65965	326.304
211.2000	-7.69075	327.413
211.0000	-7.7037	328.547
210.8000	-7.72068	329.711
210.6000	-7.78861	330.902
210.4000	-7.82178	332.129
210.2000	-7.87424	333.39
210.0000	-7.87221	334.684
209.8000	-7.89588	336.016
209.6000	-7.87462	337.385
209.4000	-7.88482	338.792
209.2000	-7.89602	340.236
209.0000	-7.86863	341.719
208.8000	-7.82272	343.239
208.6000	-7.8044	344.794
208.4000	-7.76824	346.39
208.2000	-7.76056	348.027
208.0000	-7.74645	349.704
207.8000	-7.69524	351.421
207.6000	-7.6779	353.18
207.4000	-7.60116	354.981
207.2000	-7.56178	356.824
207.0000	-7.47602	358.712
206.8000	-7.40212	360.65
206.6000	-7.34824	362.636
206.4000	-7.22648	364.671
206.2000	-7.17009	366.755
206.0000	-7.07509	368.891
205.8000	-6.95404	371.078
205.6000	-6.84311	373.318
205.4000	-6.70832	375.61
205.2000	-6.54881	377.957
205.0000	-6.36774	380.357
204.8000	-6.26389	382.814
204.6000	-6.09907	385.329
204.4000	-5.91744	387.908
204.2000	-5.7217	390.548
204.0000	-5.51299	393.249
203.8000	-5.32772	396.015
203.6000	-5.16789	398.847
203.4000	-4.92315	401.751
203.2000	-4.72936	404.727
203.0000	-4.49366	407.776
202.8000	-4.28615	410.893
202.6000	-4.00906	414.086
202.4000	-3.77124	417.363
202.2000	-3.51205	420.716
202.0000	-3.17873	424.138
201.8000	-2.82992	427.638
201.6000	-2.39582	431.212
201.4000	-2.11679	434.867
201.2000	-1.80479	438.6
201.0000	-1.42431	442.417
200.8000	-1.10845	446.319
200.6000	-0.751658	450.305
200.4000	-0.263979	454.378
200.2000	0.136665	458.543
200.0000	0.590104	462.807
199.8000	1.11538	467.162
199.6000	1.62625	471.611
199.4000	2.06943	476.163
199.2000	2.37796	480.821
199.0000	2.71423	485.586
198.8000	3.11966	490.459
198.6000	3.48717	495.442
198.4000	3.95445	500.551
198.2000	4.38239	505.771
198.0000	4.85649	511.116
197.8000	5.14511	516.592
197.6000	5.45394	522.202
197.4000	5.89577	527.942
197.2000	6.46924	533.819
197.0000	6.53148	539.847
196.8000	6.58401	546.04
196.6000	6.90314	552.4
196.4000	7.34723	558.936
196.2000	7.68117	565.667
196.0000	7.97218	572.607
195.8000	8.36633	579.772
195.6000	8.1831	587.161
195.4000	8.38243	594.795
195.2000	8.56691	602.681
195.0000	8.57893	610.832
