TITLE	PE26_GEF_Assay_Scan
DATA TYPE	
ORIGIN	JASCO
OWNER	
DATE	18/09/13
TIME	13:50:26
SPECTROMETER/DATA SYSTEM	JASCO Corp., J-715, Rev. 1.00
RESOLUTION	
DELTAX	-0.2
XUNITS	NANOMETERS
YUNITS	CD[mdeg]
Y2UNITS	HT[V]
FIRSTX	280.0000
LASTX	195.0000
NPOINTS	426
FIRSTY	-0.06298
MAXY	9.48901
MINY	-8.58351
XYDATA
280.0000	-0.0629814	237.533
279.8000	-0.0551207	237.543
279.6000	-0.0609877	237.561
279.4000	-0.0711851	237.583
279.2000	-0.0603931	237.616
279.0000	-0.0478165	237.656
278.8000	-0.0402822	237.705
278.6000	-0.0442462	237.763
278.4000	-0.0426807	237.826
278.2000	-0.046735	237.896
278.0000	-0.0545423	237.972
277.8000	-0.0581343	238.058
277.6000	-0.0535185	238.151
277.4000	-0.0521135	238.251
277.2000	-0.0461187	238.354
277.0000	-0.0459268	238.457
276.8000	-0.0281353	238.561
276.6000	-0.0208137	238.666
276.4000	-0.0301504	238.772
276.2000	-0.0224104	238.876
276.0000	-0.0233264	238.98
275.8000	-0.0271041	239.083
275.6000	-0.0380235	239.189
275.4000	-0.0368478	239.295
275.2000	-0.0342331	239.402
275.0000	-0.0333219	239.508
274.8000	-0.0222249	239.614
274.6000	-0.0298624	239.717
274.4000	-0.023957	239.821
274.2000	-0.0275126	239.926
274.0000	-0.0342028	240.031
273.8000	-0.0297613	240.136
273.6000	-0.0378144	240.241
273.4000	-0.0322254	240.347
273.2000	-0.030076	240.456
273.0000	-0.0144699	240.564
272.8000	-0.00781822	240.673
272.6000	-0.0226231	240.784
272.4000	-0.0181723	240.896
272.2000	-0.0103874	241.012
272.0000	-0.00969291	241.131
271.8000	-0.0112963	241.25
271.6000	-0.0122015	241.371
271.4000	-0.00934243	241.493
271.2000	-0.0109367	241.613
271.0000	-0.015337	241.734
270.8000	-0.0203366	241.854
270.6000	-0.0218308	241.973
270.4000	-0.0211287	242.092
270.2000	-0.0361662	242.213
270.0000	-0.0401671	242.33
269.8000	-0.039073	242.446
269.6000	-0.0440586	242.557
269.4000	-0.0466666	242.667
269.2000	-0.0437734	242.775
269.0000	-0.0501335	242.882
268.8000	-0.0476973	242.986
268.6000	-0.0554507	243.089
268.4000	-0.0469012	243.194
268.2000	-0.0458806	243.294
268.0000	-0.0539527	243.397
267.8000	-0.0598798	243.5
267.6000	-0.0570149	243.602
267.4000	-0.0415773	243.705
267.2000	-0.0351641	243.809
267.0000	-0.0377369	243.912
266.8000	-0.0351176	244.011
266.6000	-0.0432158	244.112
266.4000	-0.0391026	244.212
266.2000	-0.038388	244.311
266.0000	-0.0339327	244.409
265.8000	-0.0260553	244.509
265.6000	-0.0348952	244.608
265.4000	-0.0281141	244.707
265.2000	-0.0137868	244.802
265.0000	-0.0169361	244.895
264.8000	-0.0222621	244.99
264.6000	-0.0294681	245.082
264.4000	-0.0306704	245.171
264.2000	-0.0424235	245.262
264.0000	-0.041074	245.353
263.8000	-0.0340033	245.444
263.6000	-0.0445292	245.532
263.4000	-0.040992	245.623
263.2000	-0.0469537	245.713
263.0000	-0.0526714	245.803
262.8000	-0.0582359	245.891
262.6000	-0.0552933	245.981
262.4000	-0.0589638	246.072
262.2000	-0.0598629	246.165
262.0000	-0.0552697	246.261
261.8000	-0.0588796	246.36
261.6000	-0.0467441	246.458
261.4000	-0.0521593	246.557
261.2000	-0.0452416	246.654
261.0000	-0.0479653	246.752
260.8000	-0.0593579	246.852
260.6000	-0.056098	246.954
260.4000	-0.0569861	247.059
260.2000	-0.0543027	247.166
260.0000	-0.055654	247.276
259.8000	-0.0643444	247.385
259.6000	-0.0664732	247.495
259.4000	-0.0712686	247.6
259.2000	-0.0759912	247.704
259.0000	-0.0857792	247.807
258.8000	-0.100329	247.911
258.6000	-0.093055	248.017
258.4000	-0.0819263	248.125
258.2000	-0.0650377	248.229
258.0000	-0.0643413	248.336
257.8000	-0.0637164	248.439
257.6000	-0.0770683	248.544
257.4000	-0.075875	248.646
257.2000	-0.0640223	248.752
257.0000	-0.0744452	248.858
256.8000	-0.0666983	248.966
256.6000	-0.0655332	249.076
256.4000	-0.0580022	249.189
256.2000	-0.0447271	249.301
256.0000	-0.0426638	249.415
255.8000	-0.0562367	249.529
255.6000	-0.0728724	249.647
255.4000	-0.0746107	249.766
255.2000	-0.0802789	249.886
255.0000	-0.0739465	250.007
254.8000	-0.0650744	250.13
254.6000	-0.0652535	250.252
254.4000	-0.0540276	250.371
254.2000	-0.0445874	250.493
254.0000	-0.0505331	250.613
253.8000	-0.0413692	250.733
253.6000	-0.0376611	250.855
253.4000	-0.0394392	250.975
253.2000	-0.0435808	251.096
253.0000	-0.0562451	251.215
252.8000	-0.066705	251.333
252.6000	-0.0635467	251.452
252.4000	-0.067728	251.567
252.2000	-0.0782723	251.682
252.0000	-0.0935421	251.794
251.8000	-0.113685	251.908
251.6000	-0.127743	252.022
251.4000	-0.145163	252.136
251.2000	-0.14767	252.252
251.0000	-0.154229	252.365
250.8000	-0.163124	252.475
250.6000	-0.17138	252.585
250.4000	-0.168182	252.694
250.2000	-0.174114	252.804
250.0000	-0.176592	252.917
249.8000	-0.183385	253.03
249.6000	-0.177231	253.145
249.4000	-0.183548	253.259
249.2000	-0.188207	253.374
249.0000	-0.202533	253.492
248.8000	-0.201582	253.612
248.6000	-0.204304	253.73
248.4000	-0.213926	253.85
248.2000	-0.229923	253.973
248.0000	-0.237792	254.101
247.8000	-0.256009	254.234
247.6000	-0.257144	254.367
247.4000	-0.254768	254.5
247.2000	-0.259166	254.633
247.0000	-0.270127	254.767
246.8000	-0.288397	254.904
246.6000	-0.30045	255.043
246.4000	-0.322756	255.184
246.2000	-0.318369	255.326
246.0000	-0.342196	255.47
245.8000	-0.348357	255.618
245.6000	-0.362668	255.767
245.4000	-0.361918	255.915
245.2000	-0.37566	256.066
245.0000	-0.386234	256.22
244.8000	-0.400283	256.375
244.6000	-0.431708	256.534
244.4000	-0.444982	256.696
244.2000	-0.475106	256.861
244.0000	-0.497076	257.031
243.8000	-0.510318	257.205
243.6000	-0.538301	257.382
243.4000	-0.563815	257.564
243.2000	-0.581687	257.747
243.0000	-0.596916	257.933
242.8000	-0.640219	258.122
242.6000	-0.663119	258.316
242.4000	-0.688438	258.512
242.2000	-0.722858	258.715
242.0000	-0.755058	258.922
241.8000	-0.785168	259.132
241.6000	-0.800517	259.346
241.4000	-0.829159	259.564
241.2000	-0.863783	259.785
241.0000	-0.902454	260.009
240.8000	-0.921102	260.237
240.6000	-0.961591	260.467
240.4000	-1.00842	260.704
240.2000	-1.04972	260.944
240.0000	-1.08536	261.188
239.8000	-1.14001	261.438
239.6000	-1.18398	261.693
239.4000	-1.23773	261.951
239.2000	-1.30564	262.213
239.0000	-1.3478	262.478
238.8000	-1.39743	262.749
238.6000	-1.44827	263.02
238.4000	-1.50642	263.295
238.2000	-1.55435	263.576
238.0000	-1.6355	263.86
237.8000	-1.70441	264.149
237.6000	-1.76584	264.445
237.4000	-1.82969	264.745
237.2000	-1.91075	265.046
237.0000	-1.96949	265.35
236.8000	-2.04716	265.656
236.6000	-2.10337	265.968
236.4000	-2.18499	266.282
236.2000	-2.28586	266.603
236.0000	-2.36369	266.929
235.8000	-2.45047	267.261
235.6000	-2.51368	267.597
235.4000	-2.58527	267.933
235.2000	-2.65909	268.274
235.0000	-2.73071	268.617
234.8000	-2.83192	268.964
234.6000	-2.91226	269.316
234.4000	-2.99119	269.672
234.2000	-3.07068	270.032
234.0000	-3.14037	270.396
233.8000	-3.2126	270.765
233.6000	-3.28017	271.135
233.4000	-3.35528	271.507
233.2000	-3.43618	271.881
233.0000	-3.54269	272.257
232.8000	-3.65278	272.635
232.6000	-3.74176	273.014
232.4000	-3.81165	273.392
232.2000	-3.90074	273.771
232.0000	-3.97106	274.149
231.8000	-4.06347	274.527
231.6000	-4.15058	274.904
231.4000	-4.25267	275.282
231.2000	-4.35417	275.662
231.0000	-4.44319	276.043
230.8000	-4.52958	276.426
230.6000	-4.62859	276.808
230.4000	-4.69272	277.19
230.2000	-4.72988	277.575
230.0000	-4.81146	277.96
229.8000	-4.89254	278.347
229.6000	-4.97943	278.738
229.4000	-5.06755	279.128
229.2000	-5.14188	279.521
229.0000	-5.21337	279.912
228.8000	-5.29481	280.306
228.6000	-5.36072	280.696
228.4000	-5.41925	281.082
228.2000	-5.49513	281.465
228.0000	-5.58212	281.847
227.8000	-5.65186	282.23
227.6000	-5.74395	282.61
227.4000	-5.8296	282.989
227.2000	-5.87616	283.366
227.0000	-5.94201	283.743
226.8000	-6.01329	284.117
226.6000	-6.06871	284.492
226.4000	-6.1037	284.867
226.2000	-6.15349	285.244
226.0000	-6.21557	285.621
225.8000	-6.25892	286
225.6000	-6.31867	286.382
225.4000	-6.36959	286.767
225.2000	-6.41008	287.15
225.0000	-6.45441	287.535
224.8000	-6.4666	287.922
224.6000	-6.51405	288.312
224.4000	-6.55429	288.706
224.2000	-6.60101	289.1
224.0000	-6.64119	289.496
223.8000	-6.66673	289.895
223.6000	-6.72095	290.295
223.4000	-6.76409	290.697
223.2000	-6.7968	291.103
223.0000	-6.84577	291.512
222.8000	-6.86331	291.923
222.6000	-6.88756	292.338
222.4000	-6.91215	292.757
222.2000	-6.93326	293.176
222.0000	-6.95993	293.596
221.8000	-6.97779	294.017
221.6000	-7.0133	294.441
221.4000	-7.03955	294.867
221.2000	-7.04098	295.298
221.0000	-7.07823	295.73
220.8000	-7.06241	296.166
220.6000	-7.09107	296.605
220.4000	-7.10656	297.048
220.2000	-7.12243	297.492
220.0000	-7.12866	297.939
219.8000	-7.15534	298.389
219.6000	-7.16165	298.845
219.4000	-7.1818	299.308
219.2000	-7.21465	299.781
219.0000	-7.2246	300.26
218.8000	-7.22275	300.743
218.6000	-7.21356	301.232
218.4000	-7.2143	301.726
218.2000	-7.229	302.229
218.0000	-7.24789	302.739
217.8000	-7.25799	303.256
217.6000	-7.25213	303.783
217.4000	-7.27188	304.317
217.2000	-7.26122	304.862
217.0000	-7.23492	305.416
216.8000	-7.25132	305.977
216.6000	-7.23334	306.544
216.4000	-7.24267	307.117
216.2000	-7.24454	307.698
216.0000	-7.23692	308.29
215.8000	-7.26398	308.897
215.6000	-7.29011	309.516
215.4000	-7.30661	310.146
215.2000	-7.30358	310.788
215.0000	-7.32802	311.444
214.8000	-7.33121	312.115
214.6000	-7.34053	312.803
214.4000	-7.40879	313.505
214.2000	-7.44374	314.224
214.0000	-7.45625	314.963
213.8000	-7.52696	315.722
213.6000	-7.53268	316.503
213.4000	-7.58009	317.307
213.2000	-7.65431	318.132
213.0000	-7.70133	318.975
212.8000	-7.76267	319.838
212.6000	-7.81447	320.721
212.4000	-7.8559	321.626
212.2000	-7.90304	322.552
212.0000	-7.95909	323.497
211.8000	-8.00748	324.465
211.6000	-8.04805	325.456
211.4000	-8.11479	326.47
211.2000	-8.16695	327.51
211.0000	-8.24215	328.573
210.8000	-8.26285	329.66
210.6000	-8.31337	330.775
210.4000	-8.31141	331.918
210.2000	-8.32914	333.093
210.0000	-8.38169	334.299
209.8000	-8.40487	335.541
209.6000	-8.45268	336.817
209.4000	-8.47557	338.128
209.2000	-8.51151	339.473
209.0000	-8.5402	340.854
208.8000	-8.56977	342.268
208.6000	-8.58351	343.713
208.4000	-8.54266	345.194
208.2000	-8.50761	346.71
208.0000	-8.511	348.264
207.8000	-8.47919	349.855
207.6000	-8.45013	351.484
207.4000	-8.3912	353.152
207.2000	-8.33776	354.86
207.0000	-8.22653	356.603
206.8000	-8.10969	358.388
206.6000	-7.9873	360.213
206.4000	-7.88903	362.083
206.2000	-7.80889	363.999
206.0000	-7.64412	365.962
205.8000	-7.47422	367.97
205.6000	-7.39596	370.025
205.4000	-7.27814	372.125
205.2000	-7.13884	374.272
205.0000	-6.9703	376.464
204.8000	-6.76884	378.706
204.6000	-6.61892	380.995
204.4000	-6.4611	383.334
204.2000	-6.29693	385.723
204.0000	-6.14014	388.166
203.8000	-5.97207	390.67
203.6000	-5.71277	393.227
203.4000	-5.50138	395.839
203.2000	-5.31033	398.513
203.0000	-5.13406	401.248
202.8000	-4.85906	404.046
202.6000	-4.62675	406.906
202.4000	-4.36123	409.828
202.2000	-4.06395	412.809
202.0000	-3.83707	415.851
201.8000	-3.44304	418.964
201.6000	-3.04077	422.146
201.4000	-2.69254	425.397
201.2000	-2.37651	428.71
201.0000	-1.93706	432.084
200.8000	-1.60683	435.526
200.6000	-1.18196	439.036
200.4000	-0.749373	442.616
200.2000	-0.296632	446.277
200.0000	0.087746	450.02
199.8000	0.584358	453.842
199.6000	1.10459	457.742
199.4000	1.47365	461.723
199.2000	2.00145	465.782
199.0000	2.34042	469.918
198.8000	2.87397	474.135
198.6000	3.39772	478.441
198.4000	4.04654	482.842
198.2000	4.48865	487.346
198.0000	4.99276	491.956
197.8000	5.33757	496.671
197.6000	5.75201	501.486
197.4000	6.08121	506.394
197.2000	6.65259	511.402
197.0000	7	516.534
196.8000	7.24829	521.797
196.6000	7.65072	527.203
196.4000	7.76344	532.748
196.2000	8.27976	538.457
196.0000	8.43273	544.344
195.8000	8.66034	550.41
195.6000	8.63029	556.662
195.4000	8.83281	563.099
195.2000	9.20381	569.742
195.0000	9.48901	576.608
