TITLE	PE16_GEF_Assay_Scan
DATA TYPE	
ORIGIN	JASCO
OWNER	
DATE	18/09/10
TIME	12:42:49
SPECTROMETER/DATA SYSTEM	JASCO Corp., J-715, Rev. 1.00
RESOLUTION	
DELTAX	-0.2
XUNITS	NANOMETERS
YUNITS	CD[mdeg]
Y2UNITS	HT[V]
FIRSTX	280.0000
LASTX	195.0000
NPOINTS	426
FIRSTY	0.08843
MAXY	10.79311
MINY	-8.55087
XYDATA
280.0000	0.0884291	237.252
279.8000	0.085065	237.263
279.6000	0.0954573	237.282
279.4000	0.0952347	237.307
279.2000	0.100418	237.339
279.0000	0.0972342	237.376
278.8000	0.0996311	237.422
278.6000	0.0934143	237.477
278.4000	0.0943602	237.54
278.2000	0.0860608	237.611
278.0000	0.0902894	237.689
277.8000	0.0878718	237.774
277.6000	0.080193	237.865
277.4000	0.0785942	237.964
277.2000	0.0821203	238.066
277.0000	0.0800039	238.166
276.8000	0.0644917	238.269
276.6000	0.0620069	238.373
276.4000	0.0609889	238.479
276.2000	0.057743	238.584
276.0000	0.0572692	238.687
275.8000	0.0608736	238.79
275.6000	0.0632501	238.893
275.4000	0.0722445	238.996
275.2000	0.0617356	239.099
275.0000	0.0690175	239.204
274.8000	0.0659224	239.31
274.6000	0.0609187	239.412
274.4000	0.0502199	239.516
274.2000	0.0537732	239.62
274.0000	0.061895	239.724
273.8000	0.0655479	239.825
273.6000	0.0744579	239.929
273.4000	0.0774597	240.034
273.2000	0.0737067	240.141
273.0000	0.0795388	240.247
272.8000	0.0830925	240.352
272.6000	0.0753222	240.459
272.4000	0.0775075	240.57
272.2000	0.0796185	240.685
272.0000	0.0831991	240.8
271.8000	0.0828915	240.918
271.6000	0.092857	241.037
271.4000	0.0852261	241.158
271.2000	0.0916856	241.28
271.0000	0.0909146	241.401
270.8000	0.0862691	241.522
270.6000	0.095748	241.643
270.4000	0.101499	241.762
270.2000	0.10138	241.884
270.0000	0.100865	242.003
269.8000	0.112998	242.119
269.6000	0.0999183	242.228
269.4000	0.0958354	242.337
269.2000	0.102795	242.444
269.0000	0.105522	242.55
268.8000	0.117988	242.654
268.6000	0.118865	242.757
268.4000	0.109717	242.859
268.2000	0.103952	242.96
268.0000	0.0919681	243.06
267.8000	0.084576	243.16
267.6000	0.0826017	243.26
267.4000	0.0772746	243.36
267.2000	0.0742714	243.461
267.0000	0.082508	243.564
266.8000	0.0897612	243.665
266.6000	0.0838177	243.768
266.4000	0.0728689	243.871
266.2000	0.0554783	243.971
266.0000	0.0482507	244.069
265.8000	0.0514992	244.167
265.6000	0.0550639	244.264
265.4000	0.0577353	244.361
265.2000	0.0707006	244.453
265.0000	0.0618749	244.546
264.8000	0.0498735	244.64
264.6000	0.0518116	244.729
264.4000	0.0472931	244.819
264.2000	0.0267643	244.91
264.0000	0.0272923	245.001
263.8000	0.0319552	245.093
263.6000	0.030956	245.182
263.4000	0.0363035	245.274
263.2000	0.0300128	245.367
263.0000	0.0227569	245.46
262.8000	0.0126287	245.552
262.6000	0.00645024	245.644
262.4000	0.0127132	245.737
262.2000	0.0169756	245.832
262.0000	0.0159327	245.927
261.8000	0.0193431	246.026
261.6000	0.031266	246.122
261.4000	0.0343218	246.217
261.2000	0.0292025	246.313
261.0000	0.02247	246.41
260.8000	0.0157477	246.512
260.6000	0.0103604	246.613
260.4000	0.00601608	246.716
260.2000	0.00624281	246.82
260.0000	0.0120874	246.925
259.8000	0.0033887	247.031
259.6000	-0.00424564	247.141
259.4000	0.00887918	247.247
259.2000	0.00932676	247.354
259.0000	0.00353694	247.462
258.8000	-0.0106754	247.571
258.6000	-0.0120845	247.68
258.4000	0.00143927	247.791
258.2000	0.0124108	247.898
258.0000	0.0184513	248.005
257.8000	0.00921094	248.11
257.6000	0.0142258	248.216
257.4000	0.0124405	248.32
257.2000	0.0190163	248.43
257.0000	0.0245191	248.539
256.8000	0.0227509	248.648
256.6000	0.0200313	248.76
256.4000	0.0166669	248.874
256.2000	0.030184	248.986
256.0000	0.0395204	249.101
255.8000	0.0292785	249.216
255.6000	9.78708E-005	249.332
255.4000	0.00766516	249.45
255.2000	0.00510442	249.568
255.0000	0.00313038	249.688
254.8000	0.00522941	249.812
254.6000	-0.00466931	249.933
254.4000	-0.0167834	250.056
254.2000	-0.012669	250.177
254.0000	-0.0159213	250.298
253.8000	-0.0175256	250.418
253.6000	-0.031609	250.539
253.4000	-0.02929	250.66
253.2000	-0.0319045	250.782
253.0000	-0.00989223	250.904
252.8000	0.000908196	251.024
252.6000	-0.00647092	251.142
252.4000	-0.0101528	251.259
252.2000	-0.00801677	251.377
252.0000	-0.0083012	251.494
251.8000	-0.0091204	251.612
251.6000	-0.0100629	251.73
251.4000	-0.00951189	251.849
251.2000	-0.00601006	251.969
251.0000	-0.00686628	252.087
250.8000	-0.0160613	252.204
250.6000	-0.0221916	252.319
250.4000	-0.0277926	252.433
250.2000	-0.0309072	252.547
250.0000	-0.0431901	252.662
249.8000	-0.0501469	252.777
249.6000	-0.0442693	252.892
249.4000	-0.0488593	253.007
249.2000	-0.0569514	253.121
249.0000	-0.0498978	253.237
248.8000	-0.0679118	253.354
248.6000	-0.089616	253.472
248.4000	-0.0942558	253.593
248.2000	-0.0927557	253.719
248.0000	-0.102617	253.847
247.8000	-0.108725	253.979
247.6000	-0.129762	254.113
247.4000	-0.146802	254.248
247.2000	-0.158574	254.383
247.0000	-0.178289	254.522
246.8000	-0.197487	254.663
246.6000	-0.196012	254.804
246.4000	-0.202487	254.95
246.2000	-0.223943	255.097
246.0000	-0.23696	255.246
245.8000	-0.245615	255.396
245.6000	-0.258907	255.546
245.4000	-0.262616	255.695
245.2000	-0.281972	255.848
245.0000	-0.293773	256.001
244.8000	-0.317741	256.156
244.6000	-0.321745	256.318
244.4000	-0.327842	256.483
244.2000	-0.335913	256.647
244.0000	-0.351927	256.817
243.8000	-0.39212	256.99
243.6000	-0.420823	257.167
243.4000	-0.452721	257.347
243.2000	-0.482594	257.529
243.0000	-0.497389	257.716
242.8000	-0.53996	257.906
242.6000	-0.57293	258.1
242.4000	-0.602768	258.298
242.2000	-0.637537	258.501
242.0000	-0.665069	258.707
241.8000	-0.714949	258.916
241.6000	-0.76637	259.129
241.4000	-0.797829	259.347
241.2000	-0.844949	259.567
241.0000	-0.869399	259.792
240.8000	-0.899274	260.02
240.6000	-0.947009	260.25
240.4000	-0.979023	260.485
240.2000	-1.03611	260.724
240.0000	-1.0656	260.969
239.8000	-1.12751	261.218
239.6000	-1.16526	261.471
239.4000	-1.1985	261.725
239.2000	-1.24046	261.986
239.0000	-1.27452	262.251
238.8000	-1.31203	262.519
238.6000	-1.36863	262.792
238.4000	-1.43308	263.07
238.2000	-1.49259	263.352
238.0000	-1.55403	263.638
237.8000	-1.60876	263.927
237.6000	-1.67528	264.22
237.4000	-1.75014	264.517
237.2000	-1.80976	264.817
237.0000	-1.8947	265.12
236.8000	-1.9606	265.428
236.6000	-2.04938	265.739
236.4000	-2.12436	266.052
236.2000	-2.22447	266.37
236.0000	-2.31266	266.692
235.8000	-2.3673	267.018
235.6000	-2.44524	267.348
235.4000	-2.5146	267.68
235.2000	-2.58789	268.017
235.0000	-2.66157	268.359
234.8000	-2.73382	268.703
234.6000	-2.80584	269.052
234.4000	-2.87809	269.401
234.2000	-2.94301	269.754
234.0000	-3.02325	270.112
233.8000	-3.08579	270.474
233.6000	-3.17222	270.84
233.4000	-3.2359	271.207
233.2000	-3.33872	271.579
233.0000	-3.42036	271.951
232.8000	-3.50491	272.323
232.6000	-3.57935	272.695
232.4000	-3.66749	273.068
232.2000	-3.76148	273.443
232.0000	-3.85002	273.817
231.8000	-3.95612	274.194
231.6000	-4.04706	274.57
231.4000	-4.14745	274.948
231.2000	-4.24785	275.326
231.0000	-4.33377	275.704
230.8000	-4.42573	276.081
230.6000	-4.50603	276.459
230.4000	-4.58946	276.837
230.2000	-4.6859	277.219
230.0000	-4.76082	277.601
229.8000	-4.85128	277.985
229.6000	-4.93567	278.367
229.4000	-5.02452	278.752
229.2000	-5.10846	279.14
229.0000	-5.18577	279.526
228.8000	-5.26452	279.913
228.6000	-5.33411	280.297
228.4000	-5.39481	280.68
228.2000	-5.46002	281.06
228.0000	-5.52762	281.44
227.8000	-5.59901	281.821
227.6000	-5.66038	282.198
227.4000	-5.74374	282.572
227.2000	-5.82189	282.949
227.0000	-5.87791	283.327
226.8000	-5.92687	283.706
226.6000	-5.99956	284.082
226.4000	-6.05463	284.456
226.2000	-6.10401	284.832
226.0000	-6.16889	285.21
225.8000	-6.20759	285.589
225.6000	-6.28073	285.974
225.4000	-6.34071	286.36
225.2000	-6.3884	286.748
225.0000	-6.44667	287.136
224.8000	-6.49899	287.528
224.6000	-6.55178	287.922
224.4000	-6.59796	288.315
224.2000	-6.63392	288.708
224.0000	-6.66203	289.102
223.8000	-6.67347	289.498
223.6000	-6.72468	289.897
223.4000	-6.7482	290.298
223.2000	-6.78254	290.702
223.0000	-6.818	291.106
222.8000	-6.81957	291.511
222.6000	-6.86769	291.92
222.4000	-6.91982	292.333
222.2000	-6.94066	292.748
222.0000	-6.96665	293.163
221.8000	-6.9735	293.58
221.6000	-6.99818	294.002
221.4000	-7.03569	294.429
221.2000	-7.06704	294.86
221.0000	-7.07877	295.293
220.8000	-7.07763	295.729
220.6000	-7.09841	296.166
220.4000	-7.12641	296.606
220.2000	-7.15242	297.051
220.0000	-7.16391	297.499
219.8000	-7.1511	297.95
219.6000	-7.15699	298.403
219.4000	-7.14845	298.863
219.2000	-7.14801	299.331
219.0000	-7.16518	299.805
218.8000	-7.17058	300.284
218.6000	-7.15769	300.767
218.4000	-7.17856	301.257
218.2000	-7.18407	301.756
218.0000	-7.20305	302.262
217.8000	-7.19155	302.775
217.6000	-7.19569	303.298
217.4000	-7.19535	303.828
217.2000	-7.22118	304.369
217.0000	-7.24254	304.918
216.8000	-7.24357	305.478
216.6000	-7.26473	306.042
216.4000	-7.27386	306.615
216.2000	-7.28137	307.196
216.0000	-7.29772	307.788
215.8000	-7.30699	308.39
215.6000	-7.32094	309.005
215.4000	-7.32034	309.633
215.2000	-7.337	310.276
215.0000	-7.35465	310.932
214.8000	-7.366	311.602
214.6000	-7.37957	312.287
214.4000	-7.37836	312.987
214.2000	-7.38584	313.706
214.0000	-7.4232	314.444
213.8000	-7.41771	315.202
213.6000	-7.43703	315.981
213.4000	-7.48519	316.782
213.2000	-7.53487	317.603
213.0000	-7.58387	318.444
212.8000	-7.62358	319.303
212.6000	-7.70164	320.183
212.4000	-7.76052	321.084
212.2000	-7.81061	322.007
212.0000	-7.86443	322.952
211.8000	-7.89118	323.918
211.6000	-7.95905	324.907
211.4000	-8.03347	325.917
211.2000	-8.11765	326.951
211.0000	-8.20337	328.009
210.8000	-8.26642	329.092
210.6000	-8.30434	330.201
210.4000	-8.3293	331.339
210.2000	-8.36366	332.509
210.0000	-8.40893	333.711
209.8000	-8.41256	334.946
209.6000	-8.42423	336.218
209.4000	-8.45544	337.52
209.2000	-8.47173	338.857
209.0000	-8.55087	340.23
208.8000	-8.54503	341.637
208.6000	-8.54102	343.077
208.4000	-8.47842	344.553
208.2000	-8.49527	346.062
208.0000	-8.4408	347.609
207.8000	-8.38246	349.192
207.6000	-8.32472	350.814
207.4000	-8.25826	352.473
207.2000	-8.20157	354.171
207.0000	-8.14102	355.908
206.8000	-8.01443	357.686
206.6000	-7.8695	359.508
206.4000	-7.73367	361.371
206.2000	-7.56777	363.28
206.0000	-7.40376	365.233
205.8000	-7.26973	367.231
205.6000	-7.1256	369.277
205.4000	-6.9218	371.37
205.2000	-6.73838	373.509
205.0000	-6.54579	375.693
204.8000	-6.44446	377.929
204.6000	-6.28815	380.217
204.4000	-6.03333	382.555
204.2000	-5.87491	384.944
204.0000	-5.73189	387.39
203.8000	-5.57518	389.895
203.6000	-5.33994	392.462
203.4000	-5.14014	395.09
203.2000	-4.87916	397.784
203.0000	-4.64191	400.544
202.8000	-4.40413	403.37
202.6000	-4.18286	406.26
202.4000	-3.94077	409.216
202.2000	-3.55714	412.236
202.0000	-3.1914	415.32
201.8000	-2.85313	418.476
201.6000	-2.47414	421.7
201.4000	-2.03829	424.996
201.2000	-1.61555	428.363
201.0000	-1.2271	431.794
200.8000	-0.791024	435.296
200.6000	-0.330079	438.875
200.4000	0.133397	442.532
200.2000	0.699222	446.275
200.0000	1.1485	450.108
199.8000	1.67517	454.032
199.6000	2.26803	458.05
199.4000	2.62916	462.161
199.2000	3.01884	466.362
199.0000	3.4887	470.658
198.8000	3.99615	475.054
198.6000	4.3257	479.555
198.4000	4.7318	484.172
198.2000	5.08803	488.91
198.0000	5.57181	493.771
197.8000	5.84929	498.759
197.6000	6.29014	503.871
197.4000	6.60368	509.104
197.2000	6.93935	514.464
197.0000	7.37629	519.975
196.8000	7.63675	525.65
196.6000	8.10385	531.498
196.4000	8.69028	537.52
196.2000	8.83627	543.742
196.0000	9.28196	550.174
195.8000	9.77363	556.828
195.6000	10.1398	563.706
195.4000	10.4331	570.817
195.2000	10.7931	578.182
195.0000	10.7708	585.823
