TITLE	PE19_GEF_Assay_Scan
DATA TYPE	
ORIGIN	JASCO
OWNER	
DATE	18/09/11
TIME	15:31:17
SPECTROMETER/DATA SYSTEM	JASCO Corp., J-715, Rev. 1.00
RESOLUTION	
DELTAX	-0.2
XUNITS	NANOMETERS
YUNITS	CD[mdeg]
Y2UNITS	HT[V]
FIRSTX	280.0000
LASTX	195.0000
NPOINTS	426
FIRSTY	-0.15196
MAXY	9.47770
MINY	-8.36808
XYDATA
280.0000	-0.151962	236.924
279.8000	-0.153651	236.931
279.6000	-0.151451	236.948
279.4000	-0.162406	236.972
279.2000	-0.16274	237.001
279.0000	-0.175864	237.04
278.8000	-0.158295	237.087
278.6000	-0.144426	237.144
278.4000	-0.139376	237.206
278.2000	-0.144252	237.277
278.0000	-0.149567	237.354
277.8000	-0.156008	237.442
277.6000	-0.159824	237.535
277.4000	-0.157377	237.637
277.2000	-0.154737	237.741
277.0000	-0.150066	237.849
276.8000	-0.153499	237.956
276.6000	-0.150656	238.064
276.4000	-0.143475	238.173
276.2000	-0.141702	238.281
276.0000	-0.142395	238.39
275.8000	-0.145565	238.497
275.6000	-0.135696	238.608
275.4000	-0.133563	238.718
275.2000	-0.143161	238.828
275.0000	-0.142097	238.938
274.8000	-0.135551	239.048
274.6000	-0.14466	239.154
274.4000	-0.15172	239.263
274.2000	-0.155472	239.369
274.0000	-0.152625	239.477
273.8000	-0.158268	239.581
273.6000	-0.16397	239.689
273.4000	-0.166516	239.797
273.2000	-0.165526	239.906
273.0000	-0.183844	240.017
272.8000	-0.175649	240.128
272.6000	-0.171386	240.241
272.4000	-0.177335	240.357
272.2000	-0.175601	240.475
272.0000	-0.182119	240.596
271.8000	-0.178439	240.719
271.6000	-0.181297	240.842
271.4000	-0.180433	240.965
271.2000	-0.181108	241.089
271.0000	-0.1906	241.214
270.8000	-0.182112	241.338
270.6000	-0.191754	241.462
270.4000	-0.18711	241.583
270.2000	-0.176157	241.705
270.0000	-0.178247	241.824
269.8000	-0.178326	241.941
269.6000	-0.174859	242.052
269.4000	-0.171615	242.164
269.2000	-0.163247	242.273
269.0000	-0.162801	242.38
268.8000	-0.167268	242.487
268.6000	-0.166299	242.594
268.4000	-0.162759	242.7
268.2000	-0.159675	242.806
268.0000	-0.164008	242.91
267.8000	-0.16865	243.014
267.6000	-0.176309	243.118
267.4000	-0.183232	243.224
267.2000	-0.182458	243.33
267.0000	-0.192454	243.436
266.8000	-0.179878	243.539
266.6000	-0.186988	243.643
266.4000	-0.193996	243.745
266.2000	-0.20356	243.848
266.0000	-0.184471	243.947
265.8000	-0.171025	244.047
265.6000	-0.166097	244.146
265.4000	-0.171434	244.245
265.2000	-0.172045	244.341
265.0000	-0.176402	244.436
264.8000	-0.171653	244.53
264.6000	-0.176878	244.62
264.4000	-0.176392	244.71
264.2000	-0.182173	244.803
264.0000	-0.189278	244.896
263.8000	-0.188765	244.987
263.6000	-0.177694	245.076
263.4000	-0.174376	245.168
263.2000	-0.189756	245.259
263.0000	-0.202043	245.352
262.8000	-0.196892	245.44
262.6000	-0.19569	245.529
262.4000	-0.184965	245.622
262.2000	-0.188548	245.717
262.0000	-0.189283	245.815
261.8000	-0.185405	245.914
261.6000	-0.192789	246.013
261.4000	-0.202346	246.112
261.2000	-0.197819	246.211
261.0000	-0.194343	246.313
260.8000	-0.201396	246.418
260.6000	-0.205263	246.525
260.4000	-0.184082	246.633
260.2000	-0.196941	246.74
260.0000	-0.198063	246.849
259.8000	-0.195234	246.958
259.6000	-0.203641	247.065
259.4000	-0.203708	247.17
259.2000	-0.208094	247.276
259.0000	-0.219522	247.382
258.8000	-0.214866	247.485
258.6000	-0.214263	247.59
258.4000	-0.207577	247.698
258.2000	-0.221951	247.801
258.0000	-0.223033	247.906
257.8000	-0.225901	248.009
257.6000	-0.250621	248.114
257.4000	-0.249303	248.219
257.2000	-0.24852	248.328
257.0000	-0.246706	248.434
256.8000	-0.222332	248.541
256.6000	-0.237692	248.652
256.4000	-0.220712	248.763
256.2000	-0.216246	248.876
256.0000	-0.215744	248.994
255.8000	-0.226453	249.107
255.6000	-0.225321	249.223
255.4000	-0.232123	249.339
255.2000	-0.237231	249.451
255.0000	-0.232318	249.566
254.8000	-0.213524	249.681
254.6000	-0.206418	249.796
254.4000	-0.213744	249.913
254.2000	-0.21462	250.031
254.0000	-0.221154	250.148
253.8000	-0.22719	250.264
253.6000	-0.237	250.379
253.4000	-0.249806	250.492
253.2000	-0.233763	250.606
253.0000	-0.232962	250.722
252.8000	-0.238702	250.838
252.6000	-0.222579	250.953
252.4000	-0.234647	251.069
252.2000	-0.245479	251.184
252.0000	-0.264623	251.298
251.8000	-0.27257	251.413
251.6000	-0.281223	251.526
251.4000	-0.300175	251.639
251.2000	-0.304756	251.75
251.0000	-0.297518	251.86
250.8000	-0.306151	251.968
250.6000	-0.305304	252.075
250.4000	-0.307737	252.183
250.2000	-0.313058	252.292
250.0000	-0.328492	252.4
249.8000	-0.328945	252.507
249.6000	-0.322997	252.615
249.4000	-0.326545	252.723
249.2000	-0.336624	252.833
249.0000	-0.334699	252.943
248.8000	-0.337443	253.054
248.6000	-0.338552	253.168
248.4000	-0.344991	253.286
248.2000	-0.350805	253.407
248.0000	-0.360714	253.531
247.8000	-0.372451	253.658
247.6000	-0.382712	253.785
247.4000	-0.382576	253.911
247.2000	-0.404002	254.039
247.0000	-0.411908	254.168
246.8000	-0.440728	254.3
246.6000	-0.447432	254.434
246.4000	-0.457763	254.569
246.2000	-0.475444	254.707
246.0000	-0.48568	254.846
245.8000	-0.489875	254.986
245.6000	-0.486064	255.128
245.4000	-0.495778	255.27
245.2000	-0.502102	255.415
245.0000	-0.521251	255.561
244.8000	-0.544527	255.708
244.6000	-0.553094	255.86
244.4000	-0.564279	256.017
244.2000	-0.583849	256.174
244.0000	-0.590996	256.333
243.8000	-0.610132	256.497
243.6000	-0.615352	256.665
243.4000	-0.634618	256.836
243.2000	-0.651516	257.009
243.0000	-0.689306	257.185
242.8000	-0.716167	257.363
242.6000	-0.741387	257.546
242.4000	-0.789696	257.732
242.2000	-0.812443	257.924
242.0000	-0.850302	258.119
241.8000	-0.881298	258.318
241.6000	-0.908687	258.52
241.4000	-0.937441	258.729
241.2000	-0.966345	258.941
241.0000	-1.00558	259.153
240.8000	-1.05252	259.369
240.6000	-1.1154	259.585
240.4000	-1.15537	259.808
240.2000	-1.18149	260.036
240.0000	-1.23852	260.266
239.8000	-1.28912	260.501
239.6000	-1.32593	260.74
239.4000	-1.38059	260.984
239.2000	-1.43734	261.23
239.0000	-1.47897	261.479
238.8000	-1.52597	261.733
238.6000	-1.58309	261.989
238.4000	-1.63236	262.251
238.2000	-1.68361	262.517
238.0000	-1.73391	262.787
237.8000	-1.77987	263.061
237.6000	-1.86159	263.338
237.4000	-1.93151	263.617
237.2000	-1.99662	263.903
237.0000	-2.05467	264.193
236.8000	-2.12271	264.484
236.6000	-2.19665	264.78
236.4000	-2.25116	265.078
236.2000	-2.35581	265.381
236.0000	-2.42735	265.691
235.8000	-2.50127	266.006
235.6000	-2.59627	266.323
235.4000	-2.67891	266.642
235.2000	-2.76207	266.965
235.0000	-2.83485	267.293
234.8000	-2.90537	267.625
234.6000	-2.98701	267.959
234.4000	-3.05245	268.294
234.2000	-3.14959	268.634
234.0000	-3.23505	268.979
233.8000	-3.31021	269.326
233.6000	-3.38343	269.681
233.4000	-3.44443	270.034
233.2000	-3.5268	270.389
233.0000	-3.6272	270.744
232.8000	-3.69123	271.1
232.6000	-3.74064	271.459
232.4000	-3.81783	271.816
232.2000	-3.90344	272.175
232.0000	-3.98675	272.535
231.8000	-4.07747	272.897
231.6000	-4.17369	273.257
231.4000	-4.23709	273.615
231.2000	-4.28798	273.973
231.0000	-4.38797	274.331
230.8000	-4.488	274.689
230.6000	-4.58171	275.05
230.4000	-4.66191	275.412
230.2000	-4.73353	275.776
230.0000	-4.83766	276.141
229.8000	-4.92881	276.507
229.6000	-4.99705	276.876
229.4000	-5.08115	277.244
229.2000	-5.16247	277.611
229.0000	-5.23658	277.977
228.8000	-5.30314	278.344
228.6000	-5.39864	278.711
228.4000	-5.47956	279.08
228.2000	-5.5663	279.447
228.0000	-5.61481	279.814
227.8000	-5.69584	280.18
227.6000	-5.735	280.543
227.4000	-5.79467	280.905
227.2000	-5.86672	281.266
227.0000	-5.93066	281.627
226.8000	-5.99853	281.988
226.6000	-6.05653	282.351
226.4000	-6.09791	282.711
226.2000	-6.14431	283.077
226.0000	-6.1962	283.441
225.8000	-6.24598	283.806
225.6000	-6.27276	284.169
225.4000	-6.31312	284.534
225.2000	-6.35096	284.9
225.0000	-6.39856	285.266
224.8000	-6.45999	285.634
224.6000	-6.49286	286.001
224.4000	-6.51315	286.372
224.2000	-6.55536	286.744
224.0000	-6.58151	287.117
223.8000	-6.61845	287.493
223.6000	-6.66177	287.874
223.4000	-6.70363	288.254
223.2000	-6.73019	288.639
223.0000	-6.74785	289.026
222.8000	-6.81008	289.413
222.6000	-6.84639	289.803
222.4000	-6.88372	290.196
222.2000	-6.92046	290.59
222.0000	-6.93975	290.991
221.8000	-6.96545	291.395
221.6000	-7.00418	291.801
221.4000	-7.04396	292.209
221.2000	-7.06894	292.621
221.0000	-7.08464	293.033
220.8000	-7.08944	293.447
220.6000	-7.10988	293.865
220.4000	-7.12392	294.287
220.2000	-7.13987	294.714
220.0000	-7.13744	295.145
219.8000	-7.16884	295.582
219.6000	-7.17362	296.021
219.4000	-7.17249	296.465
219.2000	-7.18097	296.916
219.0000	-7.19229	297.374
218.8000	-7.19638	297.838
218.6000	-7.16256	298.31
218.4000	-7.16289	298.79
218.2000	-7.18313	299.276
218.0000	-7.20841	299.77
217.8000	-7.19042	300.272
217.6000	-7.21648	300.781
217.4000	-7.21113	301.298
217.2000	-7.22081	301.823
217.0000	-7.2015	302.357
216.8000	-7.22924	302.902
216.6000	-7.24558	303.455
216.4000	-7.2642	304.015
216.2000	-7.28573	304.581
216.0000	-7.28711	305.16
215.8000	-7.30359	305.746
215.6000	-7.30593	306.346
215.4000	-7.33867	306.956
215.2000	-7.34555	307.58
215.0000	-7.36249	308.22
214.8000	-7.35738	308.879
214.6000	-7.37283	309.553
214.4000	-7.39851	310.244
214.2000	-7.40069	310.953
214.0000	-7.41108	311.682
213.8000	-7.43649	312.429
213.6000	-7.45429	313.2
213.4000	-7.45057	313.994
213.2000	-7.53565	314.807
213.0000	-7.58996	315.639
212.8000	-7.63487	316.494
212.6000	-7.63702	317.371
212.4000	-7.65545	318.27
212.2000	-7.69586	319.185
212.0000	-7.72858	320.119
211.8000	-7.75939	321.076
211.6000	-7.78439	322.06
211.4000	-7.82	323.063
211.2000	-7.87049	324.092
211.0000	-7.91165	325.145
210.8000	-7.97591	326.222
210.6000	-8.02722	327.327
210.4000	-8.05663	328.463
210.2000	-8.09286	329.63
210.0000	-8.1366	330.826
209.8000	-8.19524	332.056
209.6000	-8.25027	333.319
209.4000	-8.26323	334.617
209.2000	-8.29976	335.954
209.0000	-8.32195	337.324
208.8000	-8.36808	338.727
208.6000	-8.35273	340.164
208.4000	-8.31361	341.632
208.2000	-8.26452	343.135
208.0000	-8.23222	344.674
207.8000	-8.17698	346.251
207.6000	-8.09606	347.867
207.4000	-8.00523	349.526
207.2000	-7.95837	351.222
207.0000	-7.88968	352.96
206.8000	-7.81146	354.74
206.6000	-7.69577	356.561
206.4000	-7.57799	358.426
206.2000	-7.42665	360.332
206.0000	-7.2978	362.285
205.8000	-7.20742	364.286
205.6000	-7.11007	366.337
205.4000	-6.95108	368.436
205.2000	-6.83461	370.577
205.0000	-6.68123	372.769
204.8000	-6.56459	375.009
204.6000	-6.4268	377.299
204.4000	-6.1949	379.639
204.2000	-6.03342	382.029
204.0000	-5.86067	384.471
203.8000	-5.75559	386.97
203.6000	-5.55229	389.53
203.4000	-5.34893	392.154
203.2000	-5.16066	394.837
203.0000	-4.94122	397.584
202.8000	-4.68226	400.395
202.6000	-4.42065	403.273
202.4000	-4.07604	406.216
202.2000	-3.80751	409.22
202.0000	-3.55423	412.285
201.8000	-3.20413	415.418
201.6000	-2.91936	418.621
201.4000	-2.53702	421.897
201.2000	-2.15775	425.239
201.0000	-1.75734	428.649
200.8000	-1.38694	432.126
200.6000	-1.04706	435.675
200.4000	-0.675032	439.299
200.2000	-0.322686	443.008
200.0000	0.086298	446.799
199.8000	0.483446	450.673
199.6000	0.878259	454.628
199.4000	1.36481	458.671
199.2000	1.87015	462.803
199.0000	2.24037	467.018
198.8000	2.64143	471.322
198.6000	3.21302	475.719
198.4000	3.50033	480.222
198.2000	3.83018	484.83
198.0000	4.23678	489.545
197.8000	4.59598	494.374
197.6000	4.99525	499.309
197.4000	5.47385	504.342
197.2000	5.74577	509.481
197.0000	6.03367	514.747
196.8000	6.49549	520.153
196.6000	6.84071	525.704
196.4000	7.1904	531.401
196.2000	7.44375	537.265
196.0000	7.80651	543.317
195.8000	7.90514	549.555
195.6000	8.32297	555.99
195.4000	8.66474	562.626
195.2000	8.94819	569.471
195.0000	9.4777	576.551
