TITLE	SRM1_Scan
DATA TYPE	
ORIGIN	JASCO
OWNER	
DATE	18/10/03
TIME	15:39:16
SPECTROMETER/DATA SYSTEM	JASCO Corp., J-715, Rev. 1.00
RESOLUTION	
DELTAX	-0.2
XUNITS	NANOMETERS
YUNITS	CD[mdeg]
Y2UNITS	HT[V]
FIRSTX	280.0000
LASTX	195.0000
NPOINTS	426
FIRSTY	-0.10044
MAXY	2.72857
MINY	-2.80854
XYDATA
280.0000	-0.100444	237.187
279.8000	-0.0913564	237.196
279.6000	-0.09825	237.211
279.4000	-0.0957608	237.232
279.2000	-0.0985516	237.26
279.0000	-0.0975503	237.297
278.8000	-0.0973151	237.341
278.6000	-0.107518	237.392
278.4000	-0.115724	237.452
278.2000	-0.11849	237.519
278.0000	-0.113345	237.594
277.8000	-0.113848	237.676
277.6000	-0.131088	237.764
277.4000	-0.144417	237.863
277.2000	-0.143092	237.966
277.0000	-0.131753	238.071
276.8000	-0.134817	238.175
276.6000	-0.13588	238.281
276.4000	-0.136982	238.386
276.2000	-0.134069	238.49
276.0000	-0.13956	238.594
275.8000	-0.139658	238.7
275.6000	-0.145191	238.805
275.4000	-0.146422	238.909
275.2000	-0.147103	239.014
275.0000	-0.149554	239.12
274.8000	-0.144867	239.227
274.6000	-0.134586	239.329
274.4000	-0.143998	239.432
274.2000	-0.142756	239.533
274.0000	-0.139219	239.636
273.8000	-0.144108	239.738
273.6000	-0.144719	239.841
273.4000	-0.145206	239.947
273.2000	-0.141692	240.054
273.0000	-0.140318	240.159
272.8000	-0.123896	240.266
272.6000	-0.124987	240.375
272.4000	-0.126607	240.485
272.2000	-0.12263	240.596
272.0000	-0.12025	240.71
271.8000	-0.121342	240.825
271.6000	-0.11985	240.944
271.4000	-0.125512	241.065
271.2000	-0.119422	241.188
271.0000	-0.116595	241.31
270.8000	-0.119024	241.431
270.6000	-0.122139	241.551
270.4000	-0.123751	241.668
270.2000	-0.124754	241.786
270.0000	-0.135247	241.899
269.8000	-0.146727	242.014
269.6000	-0.14701	242.125
269.4000	-0.147664	242.235
269.2000	-0.15122	242.343
269.0000	-0.152051	242.449
268.8000	-0.149853	242.55
268.6000	-0.151703	242.649
268.4000	-0.139649	242.747
268.2000	-0.137183	242.842
268.0000	-0.142402	242.94
267.8000	-0.129736	243.038
267.6000	-0.11944	243.137
267.4000	-0.113588	243.236
267.2000	-0.102049	243.335
267.0000	-0.0792632	243.435
266.8000	-0.077468	243.534
266.6000	-0.072823	243.632
266.4000	-0.0735619	243.729
266.2000	-0.0759507	243.825
266.0000	-0.0749819	243.92
265.8000	-0.0738332	244.016
265.6000	-0.0798745	244.11
265.4000	-0.073253	244.205
265.2000	-0.0659655	244.294
265.0000	-0.0747688	244.38
264.8000	-0.0705644	244.467
264.6000	-0.0709966	244.553
264.4000	-0.0875586	244.636
264.2000	-0.0887847	244.721
264.0000	-0.0923797	244.805
263.8000	-0.0931799	244.89
263.6000	-0.0892803	244.972
263.4000	-0.0856411	245.057
263.2000	-0.0927116	245.143
263.0000	-0.0829654	245.228
262.8000	-0.0767545	245.31
262.6000	-0.0763679	245.393
262.4000	-0.070179	245.482
262.2000	-0.0795458	245.573
262.0000	-0.079574	245.667
261.8000	-0.0804519	245.761
261.6000	-0.073517	245.855
261.4000	-0.0766615	245.953
261.2000	-0.0803823	246.05
261.0000	-0.0584933	246.146
260.8000	-0.0562096	246.245
260.6000	-0.0591472	246.343
260.4000	-0.0498971	246.443
260.2000	-0.0563238	246.545
260.0000	-0.0645639	246.651
259.8000	-0.0516142	246.758
259.6000	-0.0516187	246.865
259.4000	-0.0523319	246.967
259.2000	-0.0569782	247.073
259.0000	-0.0477733	247.179
258.8000	-0.0473461	247.281
258.6000	-0.03729	247.383
258.4000	-0.0276533	247.485
258.2000	-0.0358543	247.587
258.0000	-0.0412936	247.693
257.8000	-0.0271297	247.798
257.6000	-0.0410908	247.904
257.4000	-0.0338547	248.011
257.2000	-0.0322322	248.118
257.0000	-0.05404	248.222
256.8000	-0.0453514	248.328
256.6000	-0.0326293	248.436
256.4000	-0.0445383	248.545
256.2000	-0.0392621	248.655
256.0000	-0.0414539	248.768
255.8000	-0.0522467	248.88
255.6000	-0.0477462	248.995
255.4000	-0.0447354	249.111
255.2000	-0.0510819	249.227
255.0000	-0.0448601	249.345
254.8000	-0.0354722	249.464
254.6000	-0.0262272	249.581
254.4000	-0.0311596	249.697
254.2000	-0.0281467	249.814
254.0000	-0.0333611	249.934
253.8000	-0.0266362	250.052
253.6000	-0.012008	250.169
253.4000	-0.0031935	250.286
253.2000	0.00301576	250.406
253.0000	0.00465512	250.526
252.8000	0.00298476	250.646
252.6000	0.00143528	250.764
252.4000	-0.0116316	250.878
252.2000	-0.0191779	250.993
252.0000	-0.0231084	251.111
251.8000	-0.0429885	251.229
251.6000	-0.0540348	251.344
251.4000	-0.0517244	251.46
251.2000	-0.0535907	251.576
251.0000	-0.0616655	251.688
250.8000	-0.0637727	251.801
250.6000	-0.0719558	251.912
250.4000	-0.0782478	252.024
250.2000	-0.0771778	252.136
250.0000	-0.085178	252.25
249.8000	-0.0738438	252.361
249.6000	-0.0562803	252.473
249.4000	-0.059238	252.583
249.2000	-0.0529473	252.692
249.0000	-0.0338907	252.806
248.8000	-0.0337417	252.926
248.6000	-0.0429099	253.048
248.4000	-0.0466097	253.172
248.2000	-0.0415862	253.299
248.0000	-0.0544481	253.426
247.8000	-0.0661989	253.558
247.6000	-0.0619301	253.69
247.4000	-0.0727475	253.821
247.2000	-0.0726236	253.954
247.0000	-0.081232	254.089
246.8000	-0.0861501	254.228
246.6000	-0.091974	254.37
246.4000	-0.107287	254.515
246.2000	-0.12727	254.661
246.0000	-0.14071	254.807
245.8000	-0.136114	254.953
245.6000	-0.149984	255.102
245.4000	-0.164679	255.251
245.2000	-0.173893	255.402
245.0000	-0.186391	255.555
244.8000	-0.186012	255.709
244.6000	-0.19671	255.868
244.4000	-0.204887	256.028
244.2000	-0.223051	256.191
244.0000	-0.223336	256.357
243.8000	-0.218859	256.526
243.6000	-0.227546	256.698
243.4000	-0.214282	256.872
243.2000	-0.216356	257.049
243.0000	-0.229297	257.228
242.8000	-0.227828	257.413
242.6000	-0.2178	257.601
242.4000	-0.21769	257.794
242.2000	-0.22715	257.991
242.0000	-0.253898	258.192
241.8000	-0.251687	258.396
241.6000	-0.259544	258.605
241.4000	-0.266766	258.818
241.2000	-0.295231	259.029
241.0000	-0.308813	259.244
240.8000	-0.312553	259.462
240.6000	-0.318003	259.685
240.4000	-0.345765	259.912
240.2000	-0.354323	260.144
240.0000	-0.364212	260.379
239.8000	-0.380904	260.618
239.6000	-0.3894	260.861
239.4000	-0.387564	261.107
239.2000	-0.38966	261.359
239.0000	-0.400449	261.613
238.8000	-0.403302	261.872
238.6000	-0.411756	262.134
238.4000	-0.41176	262.402
238.2000	-0.417179	262.676
238.0000	-0.416811	262.949
237.8000	-0.407353	263.218
237.6000	-0.389357	263.497
237.4000	-0.392694	263.782
237.2000	-0.389605	264.072
237.0000	-0.383184	264.366
236.8000	-0.408044	264.666
236.6000	-0.43558	264.972
236.4000	-0.448672	265.278
236.2000	-0.473918	265.592
236.0000	-0.490898	265.912
235.8000	-0.501703	266.235
235.6000	-0.503162	266.561
235.4000	-0.524678	266.891
235.2000	-0.547468	267.233
235.0000	-0.562867	267.582
234.8000	-0.577726	267.928
234.6000	-0.593895	268.279
234.4000	-0.60725	268.63
234.2000	-0.606896	268.987
234.0000	-0.601509	269.346
233.8000	-0.587885	269.71
233.6000	-0.597638	270.078
233.4000	-0.577718	270.449
233.2000	-0.59571	270.821
233.0000	-0.600672	271.197
232.8000	-0.619725	271.577
232.6000	-0.612262	271.961
232.4000	-0.618674	272.345
232.2000	-0.618048	272.727
232.0000	-0.633986	273.11
231.8000	-0.644358	273.491
231.6000	-0.673567	273.873
231.4000	-0.6836	274.253
231.2000	-0.707394	274.635
231.0000	-0.706273	275.015
230.8000	-0.73245	275.396
230.6000	-0.758671	275.778
230.4000	-0.754882	276.161
230.2000	-0.77617	276.543
230.0000	-0.804786	276.923
229.8000	-0.852613	277.301
229.6000	-0.89309	277.68
229.4000	-0.918519	278.062
229.2000	-0.93668	278.444
229.0000	-0.94498	278.826
228.8000	-0.98945	279.211
228.6000	-1.01417	279.596
228.4000	-1.03311	279.978
228.2000	-1.05314	280.358
228.0000	-1.06552	280.736
227.8000	-1.1045	281.115
227.6000	-1.15521	281.493
227.4000	-1.16931	281.87
227.2000	-1.17069	282.248
227.0000	-1.18101	282.627
226.8000	-1.19794	283.006
226.6000	-1.22329	283.386
226.4000	-1.27329	283.766
226.2000	-1.29413	284.147
226.0000	-1.32822	284.529
225.8000	-1.35931	284.912
225.6000	-1.39407	285.3
225.4000	-1.45083	285.686
225.2000	-1.4719	286.074
225.0000	-1.4759	286.46
224.8000	-1.50604	286.848
224.6000	-1.56627	287.236
224.4000	-1.60845	287.625
224.2000	-1.64193	288.016
224.0000	-1.68416	288.408
223.8000	-1.72334	288.802
223.6000	-1.75681	289.199
223.4000	-1.79839	289.592
223.2000	-1.81879	289.986
223.0000	-1.8542	290.38
222.8000	-1.87094	290.775
222.6000	-1.89756	291.174
222.4000	-1.94079	291.576
222.2000	-1.98792	291.981
222.0000	-2.01032	292.39
221.8000	-2.02575	292.799
221.6000	-2.08171	293.21
221.4000	-2.1185	293.624
221.2000	-2.16213	294.041
221.0000	-2.17013	294.458
220.8000	-2.18691	294.878
220.6000	-2.22152	295.303
220.4000	-2.22273	295.734
220.2000	-2.23794	296.168
220.0000	-2.28203	296.609
219.8000	-2.32151	297.052
219.6000	-2.35472	297.502
219.4000	-2.3794	297.959
219.2000	-2.4155	298.424
219.0000	-2.43911	298.897
218.8000	-2.45955	299.377
218.6000	-2.47861	299.865
218.4000	-2.47208	300.356
218.2000	-2.53001	300.857
218.0000	-2.5638	301.367
217.8000	-2.60914	301.885
217.6000	-2.65099	302.413
217.4000	-2.67307	302.949
217.2000	-2.6813	303.495
217.0000	-2.69633	304.052
216.8000	-2.69833	304.617
216.6000	-2.72006	305.188
216.4000	-2.70365	305.768
216.2000	-2.72119	306.357
216.0000	-2.73111	306.958
215.8000	-2.7375	307.569
215.6000	-2.75132	308.197
215.4000	-2.71922	308.841
215.2000	-2.7035	309.501
215.0000	-2.68984	310.174
214.8000	-2.69598	310.863
214.6000	-2.68516	311.571
214.4000	-2.65794	312.295
214.2000	-2.66008	313.039
214.0000	-2.64951	313.804
213.8000	-2.63513	314.591
213.6000	-2.64858	315.4
213.4000	-2.6357	316.232
213.2000	-2.61433	317.086
213.0000	-2.60741	317.961
212.8000	-2.59276	318.858
212.6000	-2.61694	319.775
212.4000	-2.62257	320.714
212.2000	-2.64736	321.678
212.0000	-2.66006	322.664
211.8000	-2.67006	323.672
211.6000	-2.68413	324.707
211.4000	-2.6608	325.766
211.2000	-2.66019	326.854
211.0000	-2.65381	327.966
210.8000	-2.65209	329.105
210.6000	-2.6376	330.272
210.4000	-2.66983	331.471
210.2000	-2.68826	332.708
210.0000	-2.68458	333.976
209.8000	-2.66232	335.282
209.6000	-2.63943	336.624
209.4000	-2.62616	338.001
209.2000	-2.62789	339.413
209.0000	-2.68515	340.865
208.8000	-2.72297	342.349
208.6000	-2.71706	343.868
208.4000	-2.74129	345.423
208.2000	-2.76399	347.02
208.0000	-2.75773	348.657
207.8000	-2.75896	350.334
207.6000	-2.73838	352.052
207.4000	-2.74763	353.813
207.2000	-2.75741	355.617
207.0000	-2.80124	357.461
206.8000	-2.8074	359.351
206.6000	-2.80854	361.289
206.4000	-2.73912	363.279
206.2000	-2.67239	365.321
206.0000	-2.60583	367.414
205.8000	-2.55344	369.56
205.6000	-2.56167	371.758
205.4000	-2.49538	374.007
205.2000	-2.49936	376.309
205.0000	-2.46068	378.664
204.8000	-2.5097	381.071
204.6000	-2.4227	383.529
204.4000	-2.30398	386.046
204.2000	-2.21766	388.625
204.0000	-2.21869	391.269
203.8000	-2.16894	393.97
203.6000	-2.12441	396.731
203.4000	-1.98333	399.555
203.2000	-1.94838	402.448
203.0000	-1.89892	405.406
202.8000	-1.74782	408.43
202.6000	-1.64624	411.524
202.4000	-1.45384	414.686
202.2000	-1.30175	417.918
202.0000	-1.10561	421.221
201.8000	-1.03731	424.593
201.6000	-0.971166	428.034
201.4000	-0.842485	431.55
201.2000	-0.730623	435.142
201.0000	-0.584669	438.808
200.8000	-0.406964	442.552
200.6000	-0.406029	446.386
200.4000	-0.306801	450.304
200.2000	-0.0563182	454.309
200.0000	0.0435693	458.414
199.8000	0.1432	462.618
199.6000	0.383037	466.917
199.4000	0.346993	471.304
199.2000	0.512995	475.79
199.0000	0.720855	480.386
198.8000	0.808721	485.096
198.6000	0.926997	489.914
198.4000	1.10243	494.845
198.2000	1.16784	499.909
198.0000	1.21847	505.095
197.8000	1.37671	510.4
197.6000	1.41971	515.825
197.4000	1.43707	521.373
197.2000	1.65952	527.046
197.0000	1.44241	532.868
196.8000	1.44318	538.849
196.6000	1.45557	544.991
196.4000	1.57061	551.298
196.2000	1.64336	557.79
196.0000	1.69337	564.473
195.8000	1.88733	571.365
195.6000	2.01302	578.474
195.4000	2.45149	585.798
195.2000	2.46548	593.36
195.0000	2.72857	601.177
